reward_today,future_reward,delay,trials.thisRepN,trials.thisTrialN,trials.thisN,trials.thisIndex,thisRow.t,notes,trial.started,polygon.started,text.started,key_resp.started,polygon.stopped,trial.stopped,key_resp.keys,key_resp.rt,key_resp.duration,participant,session,date,expName,psychopyVersion,frameRate,expStart,
67,75,119,0,0,0,5,0.14227369999571238,,0.04885429999558255,0.14227369999571238,1.1036642999970354,1.1036642999970354,1.2204250999930082,10.866618599990034,t,None,None,dvdvd,001,2024-11-21_17h56.55.204,delay_discount,2024.1.5,None,2024-11-21 17h57.18.969067 +0530,
11,30,7,0,1,1,0,10.900494799992885,,10.86969659999886,10.900494799992885,11.89955309999641,11.89955309999641,11.917109399990295,15.257423699993524,l,-0.8382433999940986,None,dvdvd,001,2024-11-21_17h56.55.204,delay_discount,2024.1.5,None,2024-11-21 17h57.18.969067 +0530,
78,80,162,0,2,2,6,15.283809999993537,,15.258779799987678,15.283809999993537,16.26675609999802,16.26675609999802,16.28428690000146,18.556029699990177,t,-1.9109318999981042,None,dvdvd,001,2024-11-21_17h56.55.204,delay_discount,2024.1.5,None,2024-11-21 17h57.18.969067 +0530,
15,35,13,0,3,3,1,18.56762409998919,,18.556690500001423,18.56762409998919,19.57083799999964,19.57083799999964,19.57083799999964,28.17673379999178,l,4.405957400012994,None,dvdvd,001,2024-11-21_17h56.55.204,delay_discount,2024.1.5,None,2024-11-21 17h57.18.969067 +0530,
27,50,21,0,4,4,2,28.190373899997212,,28.177399099993636,28.190373899997212,29.188938399995095,29.188938399995095,29.203738699987298,32.312153599996236,l,-1.069748800000525,None,dvdvd,001,2024-11-21_17h56.55.204,delay_discount,2024.1.5,None,2024-11-21 17h57.18.969067 +0530,
40,55,62,0,5,5,3,32.32231659999525,,32.31283349999285,32.32231659999525,33.324992199995904,33.324992199995904,33.324992199995904,37.34538729999622,t,-0.18533589999424294,None,dvdvd,001,2024-11-21_17h56.55.204,delay_discount,2024.1.5,None,2024-11-21 17h57.18.969067 +0530,
49,60,89,0,6,6,4,37.35812879999867,,37.34607099999266,37.35812879999867,38.35832849999133,38.35832849999133,38.35832849999133,42.84678159999021,t,0.29358850000426173,None,dvdvd,001,2024-11-21_17h56.55.204,delay_discount,2024.1.5,None,2024-11-21 17h57.18.969067 +0530,
40,55,62,1,0,7,3,42.860978699987754,,42.84718789999897,42.860978699987754,43.86135359999025,43.86135359999025,43.86135359999025,47.21694689999276,t,-0.8483338999940315,None,dvdvd,001,2024-11-21_17h56.55.204,delay_discount,2024.1.5,None,2024-11-21 17h57.18.969067 +0530,
67,75,119,1,1,8,5,47.22942869999679,,47.217623799995636,47.22942869999679,48.22886189998826,48.22886189998826,48.22886189998826,193.67620409998926,t,141.2539301999932,None,dvdvd,001,2024-11-21_17h56.55.204,delay_discount,2024.1.5,None,2024-11-21 17h57.18.969067 +0530,
27,50,21,1,2,9,2,193.7038528999983,,193.67697549999866,193.7038528999983,194.68836439998995,194.68836439998995,194.7024606999912,198.668213500001,l,-0.2219079999922542,None,dvdvd,001,2024-11-21_17h56.55.204,delay_discount,2024.1.5,None,2024-11-21 17h57.18.969067 +0530,
49,60,89,1,3,10,4,198.68806489999406,,198.66903189998993,198.68806489999406,199.67256609999458,199.67256609999458,199.6892136999959,357.27375329998904,l,153.40771489999315,None,dvdvd,001,2024-11-21_17h56.55.204,delay_discount,2024.1.5,None,2024-11-21 17h57.18.969067 +0530,
11,30,7,1,4,11,0,357.2846995,,357.2744887000008,357.2846995,358.2850768999924,358.2850768999924,358.2850768999924,362.3755659000017,t,-0.10273039998719469,None,dvdvd,001,2024-11-21_17h56.55.204,delay_discount,2024.1.5,None,2024-11-21 17h57.18.969067 +0530,
15,35,13,1,5,12,1,362.38612229999853,,362.37598389999766,362.38612229999853,363.38540739999735,363.38540739999735,363.38540739999735,373.196881099997,l,5.618453600007342,None,dvdvd,001,2024-11-21_17h56.55.204,delay_discount,2024.1.5,None,2024-11-21 17h57.18.969067 +0530,
78,80,162,1,6,13,6,373.20959230000153,,373.19758079999883,373.20959230000153,374.20855219999794,374.20855219999794,374.22457909998775,382.0485003999929,t,3.642745000004652,None,dvdvd,001,2024-11-21_17h56.55.204,delay_discount,2024.1.5,None,2024-11-21 17h57.18.969067 +0530,
27,50,21,2,0,14,2,382.0608760999894,,382.04917279999063,382.0608760999894,383.0615577999997,383.0615577999997,383.0615577999997,388.08385460000136,t,0.8288215000065975,None,dvdvd,001,2024-11-21_17h56.55.204,delay_discount,2024.1.5,None,2024-11-21 17h57.18.969067 +0530,
49,60,89,2,1,15,4,388.09486639998795,,388.08431729998847,388.09486639998795,389.09753609998734,389.09753609998734,389.09753609998734,393.65375289999065,t,0.35156920000736136,None,dvdvd,001,2024-11-21_17h56.55.204,delay_discount,2024.1.5,None,2024-11-21 17h57.18.969067 +0530,
78,80,162,2,2,16,6,393.6654234000016,,393.6544298999943,393.6654234000016,394.66552859998774,394.66552859998774,394.6809816999885,400.62453449999157,t,1.7556571000022814,None,dvdvd,001,2024-11-21_17h56.55.204,delay_discount,2024.1.5,None,2024-11-21 17h57.18.969067 +0530,
15,35,13,2,3,17,1,400.6519067999907,,400.625148799998,400.6519067999907,401.635549499988,401.635549499988,401.6517564999958,424.84804599999916,l,19.015636500000255,None,dvdvd,001,2024-11-21_17h56.55.204,delay_discount,2024.1.5,None,2024-11-21 17h57.18.969067 +0530,
40,55,62,2,4,18,3,424.8615102999902,,424.84847779999836,424.8615102999902,425.86040419999335,425.86040419999335,425.86040419999335,433.0359427999938,t,None,None,dvdvd,001,2024-11-21_17h56.55.204,delay_discount,2024.1.5,None,2024-11-21 17h57.18.969067 +0530,
11,30,7,2,5,19,0,433.0474067999894,,433.03669290000107,433.0474067999894,434.0476834000001,434.0476834000001,434.0476834000001,437.587546499999,l,-0.6534391000022879,None,dvdvd,001,2024-11-21_17h56.55.204,delay_discount,2024.1.5,None,2024-11-21 17h57.18.969067 +0530,
67,75,119,2,6,20,5,437.59819619999325,,437.5879572999984,437.59819619999325,438.5992655000009,438.5992655000009,438.5992655000009,478.7203518999886,t,35.91851500001212,None,dvdvd,001,2024-11-21_17h56.55.204,delay_discount,2024.1.5,None,2024-11-21 17h57.18.969067 +0530,
40,55,62,3,0,21,3,478.73196189999,,478.7208154999971,478.73196189999,479.73240299998724,479.73240299998724,479.73240299998724,485.5567199999932,t,1.6283154999982798,None,dvdvd,001,2024-11-21_17h56.55.204,delay_discount,2024.1.5,None,2024-11-21 17h57.18.969067 +0530,
78,80,162,3,1,22,6,485.56838489999063,,485.55737809999846,485.56838489999063,486.5681089999998,486.5681089999998,486.5681089999998,488.67330799999763,l,-2.0946612999978242,None,dvdvd,001,2024-11-21_17h56.55.204,delay_discount,2024.1.5,None,2024-11-21 17h57.18.969067 +0530,
49,60,89,3,2,23,4,488.68608210000093,,488.6739693999989,488.68608210000093,489.6867678999988,489.6867678999988,489.6867678999988,495.62764819999575,t,1.7473553000018,None,dvdvd,001,2024-11-21_17h56.55.204,delay_discount,2024.1.5,None,2024-11-21 17h57.18.969067 +0530,
15,35,13,3,3,24,1,495.63938309998775,,495.6283082000009,495.63938309998775,496.63968490000116,496.63968490000116,496.63968490000116,556.9676010999974,l,56.12869820000196,None,dvdvd,001,2024-11-21_17h56.55.204,delay_discount,2024.1.5,None,2024-11-21 17h57.18.969067 +0530,
11,30,7,3,4,25,0,556.9794092999946,,556.9682965999964,556.9794092999946,557.9794328999997,557.9794328999997,557.9794328999997,561.1534707999963,l,-1.0274932000029366,None,dvdvd,001,2024-11-21_17h56.55.204,delay_discount,2024.1.5,None,2024-11-21 17h57.18.969067 +0530,
27,50,21,3,5,26,2,561.1644197999995,,561.1541690999875,561.1644197999995,562.1646083999949,562.1646083999949,562.1646083999949,618.5422059999983,l,52.17994980000367,None,dvdvd,001,2024-11-21_17h56.55.204,delay_discount,2024.1.5,None,2024-11-21 17h57.18.969067 +0530,
67,75,119,3,6,27,5,618.5539758999948,,618.5429031999956,618.5539758999948,619.553476000001,619.553476000001,619.553476000001,627.6963427999872,t,3.949698600001284,None,dvdvd,001,2024-11-21_17h56.55.204,delay_discount,2024.1.5,None,2024-11-21 17h57.18.969067 +0530,
40,55,62,4,0,28,3,627.7072990999877,,627.6970463999896,627.7072990999877,628.7075060999923,628.7075060999923,628.7075060999923,638.716875099999,t,5.809225100005278,None,dvdvd,001,2024-11-21_17h56.55.204,delay_discount,2024.1.5,None,2024-11-21 17h57.18.969067 +0530,
49,60,89,4,1,29,4,638.7448009999935,,638.7175563999917,638.7448009999935,639.7289669999882,639.7289669999882,639.7459915999934,671.6627494999993,t,27.730933800005005,None,dvdvd,001,2024-11-21_17h56.55.204,delay_discount,2024.1.5,None,2024-11-21 17h57.18.969067 +0530,
15,35,13,4,2,30,1,671.6747424999921,,671.663439099997,671.6747424999921,672.6746888999915,672.6746888999915,672.6746888999915,675.6472198999982,l,-1.222766299993964,None,dvdvd,001,2024-11-21_17h56.55.204,delay_discount,2024.1.5,None,2024-11-21 17h57.18.969067 +0530,
67,75,119,4,3,31,5,675.6595241999894,,675.6478725999914,675.6595241999894,676.660862699995,676.660862699995,676.660862699995,678.2484073999949,t,-2.6135293999832356,None,dvdvd,001,2024-11-21_17h56.55.204,delay_discount,2024.1.5,None,2024-11-21 17h57.18.969067 +0530,
78,80,162,4,4,32,6,678.260978499995,,678.2488003999897,678.260978499995,679.2615890999878,679.2615890999878,679.2615890999878,688.4335124999925,t,4.978644800008624,None,dvdvd,001,2024-11-21_17h56.55.204,delay_discount,2024.1.5,None,2024-11-21 17h57.18.969067 +0530,
27,50,21,4,5,33,2,688.4472861999966,,688.4339181999967,688.4472861999966,689.4483720999997,689.4483720999997,689.4483720999997,773.1201867999916,l,79.47869709999941,None,dvdvd,001,2024-11-21_17h56.55.204,delay_discount,2024.1.5,None,2024-11-21 17h57.18.969067 +0530,
11,30,7,4,6,34,0,773.1473944999889,,773.1208678999974,773.1473944999889,774.1315541999938,774.1315541999938,774.1486161999928,776.6008760999975,l,-1.730410899996059,None,dvdvd,001,2024-11-21_17h56.55.204,delay_discount,2024.1.5,None,2024-11-21 17h57.18.969067 +0530,
40,55,62,5,0,35,3,776.6158597999893,,776.6013068999891,776.6158597999893,777.5997578999959,777.5997578999959,777.615490799988,781.6058457999898,t,-0.1874966999894241,None,dvdvd,001,2024-11-21_17h56.55.204,delay_discount,2024.1.5,None,2024-11-21 17h57.18.969067 +0530,
78,80,162,5,1,36,6,781.6180744000012,,781.6063012999948,781.6180744000012,782.6189549999981,782.6189549999981,782.6189549999981,783.6710860999883,t,-3.1456161999958567,None,dvdvd,001,2024-11-21_17h56.55.204,delay_discount,2024.1.5,None,2024-11-21 17h57.18.969067 +0530,
15,35,13,5,2,37,1,783.6846278999874,,783.6715648999962,783.6846278999874,784.6855704999907,784.6855704999907,784.6855704999907,786.3896542000002,l,-2.493568399993819,None,dvdvd,001,2024-11-21_17h56.55.204,delay_discount,2024.1.5,None,2024-11-21 17h57.18.969067 +0530,
27,50,21,5,3,38,2,786.4028285999957,,786.3900466999912,786.4028285999957,787.4026656999922,787.4026656999922,787.4026656999922,789.4920453999948,l,-2.1181563999998616,None,dvdvd,001,2024-11-21_17h56.55.204,delay_discount,2024.1.5,None,2024-11-21 17h57.18.969067 +0530,
49,60,89,5,4,39,4,789.5032178999973,,789.4927135999897,789.5032178999973,790.5043044999911,790.5043044999911,790.5043044999911,794.3951722999918,t,-0.3027753000060329,None,dvdvd,001,2024-11-21_17h56.55.204,delay_discount,2024.1.5,None,2024-11-21 17h57.18.969067 +0530,
11,30,7,5,5,40,0,794.4052782999934,,794.3958822999994,794.4052782999934,795.4067270999949,795.4067270999949,795.4067270999949,826.591253599996,l,26.986892300003092,None,dvdvd,001,2024-11-21_17h56.55.204,delay_discount,2024.1.5,None,2024-11-21 17h57.18.969067 +0530,
67,75,119,5,6,41,5,826.6185952999949,,826.591935199991,826.6185952999949,827.6028521999979,827.6028521999979,827.6182323999965,890.3989976000012,l,58.5997997999948,None,dvdvd,001,2024-11-21_17h56.55.204,delay_discount,2024.1.5,None,2024-11-21 17h57.18.969067 +0530,
15,35,13,6,0,42,1,890.4279696999874,,890.3997703999921,890.4279696999874,891.4114552999963,891.4114552999963,891.4268490999966,895.7680255000014,l,0.16370740000274964,None,dvdvd,001,2024-11-21_17h56.55.204,delay_discount,2024.1.5,None,2024-11-21 17h57.18.969067 +0530,
40,55,62,6,1,43,3,895.7792746999912,,895.7687200999935,895.7792746999912,896.7786310999945,896.7786310999945,896.7786310999945,930.8319952999882,t,29.859052100000554,None,dvdvd,001,2024-11-21_17h56.55.204,delay_discount,2024.1.5,None,2024-11-21 17h57.18.969067 +0530,
67,75,119,6,2,44,5,930.8599518999981,,930.8325986999989,930.8599518999981,931.8439945999999,931.8439945999999,931.8602684999933,958.1595325999951,t,22.118841000003158,None,dvdvd,001,2024-11-21_17h56.55.204,delay_discount,2024.1.5,None,2024-11-21 17h57.18.969067 +0530,
27,50,21,6,3,45,2,958.1699967999884,,958.1600720999995,958.1699967999884,959.1703383999993,959.1703383999993,959.1703383999993,1073.5876490999945,l,110.22059669998998,None,dvdvd,001,2024-11-21_17h56.55.204,delay_discount,2024.1.5,None,2024-11-21 17h57.18.969067 +0530,
11,30,7,6,4,46,0,1073.5991521999968,,1073.588343299998,1073.5991521999968,1074.5998839999957,1074.5998839999957,1074.5998839999957,1129.226638799999,l,50.428221800000756,None,dvdvd,001,2024-11-21_17h56.55.204,delay_discount,2024.1.5,None,2024-11-21 17h57.18.969067 +0530,
49,60,89,6,5,47,4,1129.237123599989,,1129.2273079000006,1129.237123599989,1130.238397699999,1130.238397699999,1130.238397699999,1134.7769341999956,t,0.3439151999918977,None,dvdvd,001,2024-11-21_17h56.55.204,delay_discount,2024.1.5,None,2024-11-21 17h57.18.969067 +0530,
78,80,162,6,6,48,6,1134.7898894999962,,1134.7773406999913,1134.7898894999962,1135.790919799998,1135.790919799998,1135.790919799998,1137.9631515999936,t,-2.030152499995893,None,dvdvd,001,2024-11-21_17h56.55.204,delay_discount,2024.1.5,None,2024-11-21 17h57.18.969067 +0530,
67,75,119,7,0,49,5,1137.9730417999963,,1137.9638276999904,1137.9730417999963,1138.9747086999996,1138.9747086999996,1138.9747086999996,1142.3820306999987,t,-0.7860228000063216,None,dvdvd,001,2024-11-21_17h56.55.204,delay_discount,2024.1.5,None,2024-11-21 17h57.18.969067 +0530,
78,80,162,7,1,50,6,1142.3927608999948,,1142.3827133999876,1142.3927608999948,1143.3928955999872,1143.3928955999872,1143.3928955999872,1144.9981063999876,t,-2.597026699993876,None,dvdvd,001,2024-11-21_17h56.55.204,delay_discount,2024.1.5,None,2024-11-21 17h57.18.969067 +0530,
11,30,7,7,2,51,0,1145.0103908999881,,1144.9987919999985,1145.0103908999881,1146.0114608000003,1146.0114608000003,1146.0114608000003,1150.2173030999984,l,0.012941700013470836,None,dvdvd,001,2024-11-21_17h56.55.204,delay_discount,2024.1.5,None,2024-11-21 17h57.18.969067 +0530,
49,60,89,7,3,52,4,1150.2290263999894,,1150.218023399997,1150.2290263999894,1151.2297511999932,1151.2297511999932,1151.2297511999932,1158.3534194999957,t,2.9302999999927124,None,dvdvd,001,2024-11-21_17h56.55.204,delay_discount,2024.1.5,None,2024-11-21 17h57.18.969067 +0530,
40,55,62,7,4,53,3,1158.3655431999941,,1158.3538445000013,1158.3655431999941,1159.3660556999967,1159.3660556999967,1159.3660556999967,1161.0210435999907,t,-2.547393999993801,None,dvdvd,001,2024-11-21_17h56.55.204,delay_discount,2024.1.5,None,2024-11-21 17h57.18.969067 +0530,
27,50,21,7,5,54,2,1161.0329981999967,,1161.021689000001,1161.0329981999967,1162.0336111999932,1162.0336111999932,1162.0336111999932,1306.8786581999884,t,140.63800450001145,None,dvdvd,001,2024-11-21_17h56.55.204,delay_discount,2024.1.5,None,2024-11-21 17h57.18.969067 +0530,
15,35,13,7,6,55,1,1306.8914394999883,,1306.8793750999903,1306.8914394999883,1307.8914105000003,1307.8914105000003,1307.8914105000003,1408.1359434999904,l,96.04291860001103,None,dvdvd,001,2024-11-21_17h56.55.204,delay_discount,2024.1.5,None,2024-11-21 17h57.18.969067 +0530,
49,60,89,8,0,56,4,1408.1468666,,1408.1366340999957,1408.1468666,1409.1470051999931,1409.1470051999931,1409.1470051999931,1411.0068612999894,t,-2.343980299992836,None,dvdvd,001,2024-11-21_17h56.55.204,delay_discount,2024.1.5,None,2024-11-21 17h57.18.969067 +0530,
27,50,21,8,1,57,2,1411.030797200001,,1411.0085850999894,1411.030797200001,1412.0312829999893,1412.0312829999893,1412.0649831999908,1423.426889399998,l,7.197102300007828,None,dvdvd,001,2024-11-21_17h56.55.204,delay_discount,2024.1.5,None,2024-11-21 17h57.18.969067 +0530,
67,75,119,8,2,58,5,1423.4534665999963,,1423.4277589999983,1423.4534665999963,1424.4545922999969,1424.4545922999969,1424.4545922999969,1426.1623604999913,t,-2.5114806999918073,None,dvdvd,001,2024-11-21_17h56.55.204,delay_discount,2024.1.5,None,2024-11-21 17h57.18.969067 +0530,
40,55,62,8,3,59,3,1426.1867648999905,,1426.1635951999924,1426.1867648999905,1427.1873997999937,1427.1873997999937,1427.2207875999884,1429.2808303999918,t,-2.1092876000038814,None,dvdvd,001,2024-11-21_17h56.55.204,delay_discount,2024.1.5,None,2024-11-21 17h57.18.969067 +0530,
78,80,162,8,4,60,6,1429.3048568999948,,1429.2819414999976,1429.3048568999948,1430.3052341000002,1430.3052341000002,1430.3231258000014,1431.7856515999883,t,-2.7368247999984305,None,dvdvd,001,2024-11-21_17h56.55.204,delay_discount,2024.1.5,None,2024-11-21 17h57.18.969067 +0530,
11,30,7,8,5,61,0,1431.8056999999972,,1431.7876042999997,1431.8056999999972,1432.822600399988,1432.822600399988,1432.822600399988,1438.3182013999904,l,1.2957230000029085,None,dvdvd,001,2024-11-21_17h56.55.204,delay_discount,2024.1.5,None,2024-11-21 17h57.18.969067 +0530,
15,35,13,8,6,62,1,1438.3417625000002,,1438.3198641999916,1438.3417625000002,1439.358816699998,1439.358816699998,1439.358816699998,1512.530229600001,l,68.97154199999932,None,dvdvd,001,2024-11-21_17h56.55.204,delay_discount,2024.1.5,None,2024-11-21 17h57.18.969067 +0530,
67,75,119,9,0,63,5,1512.5541656999994,,1512.5313562999945,1512.5541656999994,1513.5407013999938,1513.5407013999938,1513.5713584999903,1516.4315608999896,t,-1.333829399998649,None,dvdvd,001,2024-11-21_17h56.55.204,delay_discount,2024.1.5,None,2024-11-21 17h57.18.969067 +0530,
78,80,162,9,1,64,6,1516.4555161999888,,1516.4328373999888,1516.4555161999888,1517.456965099991,1517.456965099991,1517.456965099991,1518.3824269999895,t,-3.2695516999956453,None,dvdvd,001,2024-11-21_17h56.55.204,delay_discount,2024.1.5,None,2024-11-21 17h57.18.969067 +0530,
49,60,89,9,2,65,4,1518.4063558999915,,1518.3840372999985,1518.4063558999915,1519.406710899988,1519.406710899988,1519.426364599989,1521.4369485999923,t,-2.1801300999941304,None,dvdvd,001,2024-11-21_17h56.55.204,delay_discount,2024.1.5,None,2024-11-21 17h57.18.969067 +0530,
11,30,7,9,3,66,0,1521.4590058999893,,1521.4388181999966,1521.4590058999893,1522.4746861999884,1522.4746861999884,1522.4746861999884,1567.998434699999,l,41.32193279999774,None,dvdvd,001,2024-11-21_17h56.55.204,delay_discount,2024.1.5,None,2024-11-21 17h57.18.969067 +0530,
15,35,13,9,4,67,1,1568.0262897999928,,1567.999770999988,1568.0262897999928,1569.0261189999874,1569.0261189999874,1569.061134299991,1570.5495908000012,l,-2.6847138999874005,None,dvdvd,001,2024-11-21_17h56.55.204,delay_discount,2024.1.5,None,2024-11-21 17h57.18.969067 +0530,
27,50,21,9,5,68,2,1570.5603683999943,,1570.5501697,1570.5603683999943,1571.5772581999918,1571.5772581999918,1571.5772581999918,1573.7028864999884,l,-2.084768199987593,None,dvdvd,001,2024-11-21_17h56.55.204,delay_discount,2024.1.5,None,2024-11-21 17h57.18.969067 +0530,
40,55,62,9,6,69,3,1573.728310599996,,1573.703867899996,1573.728310599996,1574.7119901999977,1574.7119901999977,1574.7298709999886,1577.072713799993,t,-1.8578542999894125,None,dvdvd,001,2024-11-21_17h56.55.204,delay_discount,2024.1.5,None,2024-11-21 17h57.18.969067 +0530,
67,75,119,10,0,70,5,1577.0962345000007,,1577.0740455999912,1577.0962345000007,1578.0831835999998,1578.0831835999998,1578.1132406999968,1601.211400100001,t,18.93282270000782,None,dvdvd,001,2024-11-21_17h56.55.204,delay_discount,2024.1.5,None,2024-11-21 17h57.18.969067 +0530,
11,30,7,10,1,71,0,1601.238708799996,,1601.2121478999907,1601.238708799996,1602.2239664999943,1602.2239664999943,1602.241196899995,1664.2904057999986,l,57.87144119999721,None,dvdvd,001,2024-11-21_17h56.55.204,delay_discount,2024.1.5,None,2024-11-21 17h57.18.969067 +0530,
40,55,62,10,2,72,3,1664.3135474999872,,1664.292287999997,1664.3135474999872,1665.3153710999904,1665.3153710999904,1665.332546599995,1668.7764700999978,t,-0.7375658999953885,None,dvdvd,001,2024-11-21_17h56.55.204,delay_discount,2024.1.5,None,2024-11-21 17h57.18.969067 +0530,
49,60,89,10,3,73,4,1668.7990477999992,,1668.7782312999916,1668.7990477999992,1669.816049999994,1669.816049999994,1669.816049999994,1671.7597997999983,l,-2.2574700999975903,None,dvdvd,001,2024-11-21_17h56.55.204,delay_discount,2024.1.5,None,2024-11-21 17h57.18.969067 +0530,
78,80,162,10,4,74,6,1671.7830754999886,,1671.7610558000015,1671.7830754999886,1672.78388789999,1672.78388789999,1672.8173032999912,1674.04249729999,t,-2.9614807999896584,None,dvdvd,001,2024-11-21_17h56.55.204,delay_discount,2024.1.5,None,2024-11-21 17h57.18.969067 +0530,
27,50,21,10,5,75,2,1674.0677792999923,,1674.0441439999995,1674.0677792999923,1675.067940599998,1675.067940599998,1675.1014941999892,1676.9661309999938,l,-2.298789799999213,None,dvdvd,001,2024-11-21_17h56.55.204,delay_discount,2024.1.5,None,2024-11-21 17h57.18.969067 +0530,
15,35,13,10,6,76,1,1676.9856180999923,,1676.9679865999933,1676.9856180999923,1677.9870893999905,1677.9870893999905,1678.0196920000017,1700.0671753999923,l,17.881329000010737,None,dvdvd,001,2024-11-21_17h56.55.204,delay_discount,2024.1.5,None,2024-11-21 17h57.18.969067 +0530,
15,35,13,11,0,77,1,1700.0775269000005,,1700.067884899996,1700.0775269000005,1701.0962377999967,1701.0962377999967,1701.0962377999967,1703.2867026999884,l,-2.017120699994848,None,dvdvd,001,2024-11-21_17h56.55.204,delay_discount,2024.1.5,None,2024-11-21 17h57.18.969067 +0530,
49,60,89,11,1,78,4,1703.3124138999992,,1703.2874398999993,1703.3124138999992,1704.312898899996,1704.312898899996,1704.3310933999892,1717.5314960999967,t,9.00662879999436,None,dvdvd,001,2024-11-21_17h56.55.204,delay_discount,2024.1.5,None,2024-11-21 17h57.18.969067 +0530,
67,75,119,11,2,79,5,1717.5512210999877,,1717.5334714999917,1717.5512210999877,1718.5538602000015,1718.5538602000015,1718.5538602000015,1720.8767525000003,t,-1.8851102999906288,None,dvdvd,001,2024-11-21_17h56.55.204,delay_discount,2024.1.5,None,2024-11-21 17h57.18.969067 +0530,
40,55,62,11,3,80,3,1720.902946199989,,1720.8776840999926,1720.902946199989,1721.8881170999957,1721.8881170999957,1721.9051475000015,1723.043419499998,t,-3.0500914999865927,None,dvdvd,001,2024-11-21_17h56.55.204,delay_discount,2024.1.5,None,2024-11-21 17h57.18.969067 +0530,
11,30,7,11,4,81,0,1723.0701399999962,,1723.0439909999986,1723.0701399999962,1724.0719937999966,1724.0719937999966,1724.0719937999966,1727.6150368999952,l,-0.6550799999968149,None,dvdvd,001,2024-11-21_17h56.55.204,delay_discount,2024.1.5,None,2024-11-21 17h57.18.969067 +0530,
27,50,21,11,5,82,2,1727.6387090999924,,1727.6161543999915,1727.6387090999924,1728.6557537999906,1728.6557537999906,1728.6557537999906,1729.9816915999982,l,-2.87584579999384,None,dvdvd,001,2024-11-21_17h56.55.204,delay_discount,2024.1.5,None,2024-11-21 17h57.18.969067 +0530,
78,80,162,11,6,83,6,1730.010208199994,,1729.9825438999978,1730.010208199994,1731.0065748999914,1731.0065748999914,1731.0242856999976,1732.668224699999,t,-2.5522117000073195,None,dvdvd,001,2024-11-21_17h56.55.204,delay_discount,2024.1.5,None,2024-11-21 17h57.18.969067 +0530,
49,60,89,12,0,84,4,1732.690278199996,,1732.6690425999986,1732.690278199996,1733.6908844999998,1733.6908844999998,1733.7243840999872,1738.489555799999,t,0.589169300001231,None,dvdvd,001,2024-11-21_17h56.55.204,delay_discount,2024.1.5,None,2024-11-21 17h57.18.969067 +0530,
40,55,62,12,1,85,3,1738.5092140999914,,1738.4911358999962,1738.5092140999914,1739.4959469999885,1739.4959469999885,1739.5265626999899,1741.5743169999914,t,-2.1159863000066252,None,dvdvd,001,2024-11-21_17h56.55.204,delay_discount,2024.1.5,None,2024-11-21 17h57.18.969067 +0530,
11,30,7,12,2,86,0,1741.5937987999932,,1741.5758892000013,1741.5937987999932,1742.5785961999936,1742.5785961999936,1742.5949437999952,1744.1716574999882,l,-2.6042234000051394,None,dvdvd,001,2024-11-21_17h56.55.204,delay_discount,2024.1.5,None,2024-11-21 17h57.18.969067 +0530,
78,80,162,12,3,87,6,1744.1952737999964,,1744.172774999999,1744.1952737999964,1745.1811255999928,1745.1811255999928,1745.212362899998,1746.300353499988,t,-3.0777337000035914,None,dvdvd,001,2024-11-21_17h56.55.204,delay_discount,2024.1.5,None,2024-11-21 17h57.18.969067 +0530,
15,35,13,12,4,88,1,1746.3135402999906,,1746.3008281999937,1746.3135402999906,1747.3296016999957,1747.3296016999957,1747.3296016999957,1751.4586535999988,l,-0.07889750000322238,None,dvdvd,001,2024-11-21_17h56.55.204,delay_discount,2024.1.5,None,2024-11-21 17h57.18.969067 +0530,
27,50,21,12,5,89,2,1751.4812830999872,,1751.4598173999984,1751.4812830999872,1752.481740999996,1752.481740999996,1752.515000200001,1762.4464173999877,l,5.757006500003627,None,dvdvd,001,2024-11-21_17h56.55.204,delay_discount,2024.1.5,None,2024-11-21 17h57.18.969067 +0530,
67,75,119,12,6,90,5,1762.4690669999982,,1762.4481398999924,1762.4690669999982,1763.4861156999978,1763.4861156999978,1763.4861156999978,1772.6330633999896,t,4.942166799999541,None,dvdvd,001,2024-11-21_17h56.55.204,delay_discount,2024.1.5,None,2024-11-21 17h57.18.969067 +0530,
49,60,89,13,0,91,4,1772.656572699998,,1772.6339806999895,1772.656572699998,1773.6567959999957,1773.6567959999957,1773.6898698000005,1848.4424788999895,t,70.58513220000896,None,dvdvd,001,2024-11-21_17h56.55.204,delay_discount,2024.1.5,None,2024-11-21 17h57.18.969067 +0530,
78,80,162,13,1,92,6,1848.4533913999912,,1848.4430725999991,1848.4533913999912,1849.4534217999899,1849.4534217999899,1849.4534217999899,1850.6411149999913,t,-3.0090808999957517,None,dvdvd,001,2024-11-21_17h56.55.204,delay_discount,2024.1.5,None,2024-11-21 17h57.18.969067 +0530,
27,50,21,13,2,93,2,1850.6537169999938,,1850.6417314999999,1850.6537169999938,1851.6557486999955,1851.6557486999955,1851.6557486999955,1853.1266456000012,l,-2.7290452999877743,None,dvdvd,001,2024-11-21_17h56.55.204,delay_discount,2024.1.5,None,2024-11-21 17h57.18.969067 +0530,
11,30,7,13,3,94,0,1853.1390194999985,,1853.1273744999926,1853.1390194999985,1854.1387474999938,1854.1387474999938,1854.1387474999938,1857.6621446999925,l,-0.6753171999880578,None,dvdvd,001,2024-11-21_17h56.55.204,delay_discount,2024.1.5,None,2024-11-21 17h57.18.969067 +0530,
40,55,62,13,4,95,3,1857.6900298999972,,1857.6628696999978,1857.6900298999972,1858.6748986999883,1858.6748986999883,1858.6911217000015,1861.313302999988,t,-1.5628455999976723,None,dvdvd,001,2024-11-21_17h56.55.204,delay_discount,2024.1.5,None,2024-11-21 17h57.18.969067 +0530,
15,35,13,13,5,96,1,1861.3253121000016,,1861.3138741000002,1861.3253121000016,1862.3258604000002,1862.3258604000002,1862.3258604000002,1864.1154773999879,l,-2.410076799991657,None,dvdvd,001,2024-11-21_17h56.55.204,delay_discount,2024.1.5,None,2024-11-21 17h57.18.969067 +0530,
67,75,119,13,6,97,5,1864.1265085999912,,1864.1160081999988,1864.1265085999912,1865.126616900001,1865.126616900001,1865.126616900001,1866.1001281999925,t,-3.227552600001218,None,dvdvd,001,2024-11-21_17h56.55.204,delay_discount,2024.1.5,None,2024-11-21 17h57.18.969067 +0530,
15,35,13,14,0,98,1,1866.10979029999,,1866.1007588999928,1866.10979029999,1867.1099228999956,1867.1099228999956,1867.1099228999956,1868.5328160999925,l,-2.782996199995978,None,dvdvd,001,2024-11-21_17h56.55.204,delay_discount,2024.1.5,None,2024-11-21 17h57.18.969067 +0530,
67,75,119,14,1,99,5,1868.5450637999893,,1868.5333957999974,1868.5450637999893,1869.5460473999992,1869.5460473999992,1869.5460473999992,1875.4360960999911,t,1.6896332000032999,None,dvdvd,001,2024-11-21_17h56.55.204,delay_discount,2024.1.5,None,2024-11-21 17h57.18.969067 +0530,
40,55,62,14,2,100,3,1875.4481782999937,,1875.4365412999905,1875.4481782999937,1876.4477803999907,1876.4477803999907,1876.4651394999964,1883.5567147999973,t,2.907478399996762,None,dvdvd,001,2024-11-21_17h56.55.204,delay_discount,2024.1.5,None,2024-11-21 17h57.18.969067 +0530,
11,30,7,14,3,101,0,1883.5679976999963,,1883.5574435000017,1883.5679976999963,1884.5680670000002,1884.5680670000002,1884.5849127999973,1889.140301499996,l,0.37722730000677984,None,dvdvd,001,2024-11-21_17h56.55.204,delay_discount,2024.1.5,None,2024-11-21 17h57.18.969067 +0530,
78,80,162,14,4,102,6,1889.1531321999937,,1889.1408852999884,1889.1531321999937,1890.1541805000015,1890.1541805000015,1890.1541805000015,1890.8744201999943,t,-3.481747500001802,None,dvdvd,001,2024-11-21_17h56.55.204,delay_discount,2024.1.5,None,2024-11-21 17h57.18.969067 +0530,
27,50,21,14,5,103,2,1890.8864227999875,,1890.874815999996,1890.8864227999875,1891.8879574999883,1891.8879574999883,1891.8879574999883,1893.4753853000002,l,-2.6184886999981245,None,dvdvd,001,2024-11-21_17h56.55.204,delay_discount,2024.1.5,None,2024-11-21 17h57.18.969067 +0530,
49,60,89,14,6,104,4,1893.4883395999932,,1893.4759529000003,1893.4883395999932,1894.4885670999938,1894.4885670999938,1894.4885670999938,1896.4273182999896,t,-2.2619090999942273,None,dvdvd,001,2024-11-21_17h56.55.204,delay_discount,2024.1.5,None,2024-11-21 17h57.18.969067 +0530,
